> # question_3
> # This script will create the visualizations using {ggplot2}
> 
> install.packages(c("gt", "gtsummary", "pharmaverseadam", "this.path", "binom", "tidyverse", "forcats"))
Installing packages into ‘/cloud/lib/x86_64-pc-linux-gnu-library/4.5’
(as ‘lib’ is unspecified)
trying URL 'http://rspm/default/__linux__/noble/latest/src/contrib/gt_1.3.0.tar.gz'
trying URL 'http://rspm/default/__linux__/noble/latest/src/contrib/gtsummary_2.5.0.tar.gz'
trying URL 'http://rspm/default/__linux__/noble/latest/src/contrib/pharmaverseadam_1.3.0.tar.gz'
trying URL 'http://rspm/default/__linux__/noble/latest/src/contrib/this.path_2.7.1.tar.gz'
trying URL 'http://rspm/default/__linux__/noble/latest/src/contrib/binom_1.1-1.1.tar.gz'
trying URL 'http://rspm/default/__linux__/noble/latest/src/contrib/tidyverse_2.0.0.tar.gz'
trying URL 'http://rspm/default/__linux__/noble/latest/src/contrib/forcats_1.0.1.tar.gz'
* installing *binary* package ‘gt’ ...
* DONE (gt)
* installing *binary* package ‘pharmaverseadam’ ...
* DONE (pharmaverseadam)
* installing *binary* package ‘this.path’ ...
* DONE (this.path)
* installing *binary* package ‘binom’ ...
* DONE (binom)
* installing *binary* package ‘forcats’ ...
* DONE (forcats)
* installing *binary* package ‘gtsummary’ ...
* DONE (gtsummary)
* installing *binary* package ‘tidyverse’ ...
* DONE (tidyverse)

The downloaded source packages are in
	‘/tmp/RtmpB1EURI/downloaded_packages’
> 
> library(pharmaverseadam)
> library(gtsummary)
> library(ggplot2)
> library(dplyr)

Attaching package: ‘dplyr’

The following objects are masked from ‘package:stats’:

    filter, lag

The following objects are masked from ‘package:base’:

    intersect, setdiff, setequal, union
> library(this.path)
> library(binom)
> library(tidyverse)
── Attaching core tidyverse packages ─────────────────────────────────────────────────────── tidyverse 2.0.0 ──
✔ forcats   1.0.1     ✔ stringr   1.6.0
✔ lubridate 1.9.5     ✔ tibble    3.3.1
✔ purrr     1.2.1     ✔ tidyr     1.3.2
✔ readr     2.2.0     
── Conflicts ───────────────────────────────────────────────────────────────────────── tidyverse_conflicts() ──
✖ dplyr::filter() masks stats::filter()
✖ dplyr::lag()    masks stats::lag()
ℹ Use the conflicted package to force all conflicts to become errors
> library(forcats)
> 
> # Plot 1: AE severity distribution by treatment
> 
> adsl <- pharmaverseadam::adsl
> adae <- pharmaverseadam::adae
> 
> ggplot(adae, aes(x = TRT01A, fill = AESEV)) +
+   geom_bar() +
+   xlab("Treatment Arm") +
+   ylab("Count of AEs") +
+   ggtitle("AE severity distribution by treatment")
> 
> setwd(this.path::this.dir())
> ggsave("plot1.png")
Saving 8.05 x 4.85 in image
> 
> # Plot 2: Top 10 most frequent AEs (with 95% CI for incidence rates)
> 
> # Event Rates
> tbl <- adae |>
+   tbl_hierarchical(
+   variables = c(AESOC, AETERM),
+   by = TRT01A,
+   denominator = cards::ADSL,
+   id = USUBJID,
+   digits = everything() ~ list(p = 1),
+   overall_row = TRUE,
+   label = list(..ard_hierarchical_overall.. = "Any Adverse Event")
+   ) |>
+   # Add the 'Total' column
+   add_overall(last = FALSE, col_label = "**Total**  \nN = {style_number(N)}")
> 
> # Sort all variables by descending frequency (default)
> tbl <- sort_hierarchical(tbl)
> 
> df <- tbl$table_body
> df_plot <- df %>%
+   filter(row_type == "level") %>%
+   select(label, stat_0) %>%
+   slice(c(2:11)) # Selects top 10 most frequent AEs
> 
> df_plot <- df_plot %>%
+   separate(stat_0, into = c("n","N"), sep = " \\(", remove = FALSE) %>%
+   mutate(
+     n = as.numeric(n),
+     N = 254
+   )
> 
> df_plot <- df_plot %>%
+   mutate(
+     percent = 100 * n / N
+   )
> 
> ci <- binom.confint(df_plot$n, df_plot$N, method = "exact")
> 
> df_plot <- df_plot %>%
+   mutate(
+     lower = 100 * ci$lower,
+     upper = 100 * ci$upper
+   )
> 
> ggplot(df_plot,
+        aes(x = fct_reorder(label, 100*n/N),
+            y = percent)) +
+   geom_point(size = 3) +
+   geom_errorbar(aes(ymin = lower, ymax = upper),
+                 width = 0.2,
+                 size = 0.8) +
+   coord_flip() +
+   labs(
+     title = "Top 10 Most Frequent Adverse Events",
+     subtitle = "n = 254 subjects; 95% Clopper–Pearson Confidence Intervals",
+     x = NULL,
+     y = "Percentage of Patients (%)"
+   ) +
+   theme_minimal() +
+   theme(panel.grid.major.y = element_blank())
Warning message:
Using `size` aesthetic for lines was deprecated in ggplot2 3.4.0.
ℹ Please use `linewidth` instead.
This warning is displayed once per session.
Call warnings()lifecycle::last_lifecycle_warnings() to see where this warning was generated. 
> 
> ggsave("plot2.png")
Saving 8.05 x 4.85 in image