> # question_3
> # This script will create the AE summary table
> 
> install.packages(c("gt", "gtsummary", "pharmaverseadam", "this.path"))
Installing packages into ‘/cloud/lib/x86_64-pc-linux-gnu-library/4.5’
(as ‘lib’ is unspecified)
trying URL 'http://rspm/default/__linux__/noble/latest/src/contrib/gt_1.3.0.tar.gz'
trying URL 'http://rspm/default/__linux__/noble/latest/src/contrib/gtsummary_2.5.0.tar.gz'
trying URL 'http://rspm/default/__linux__/noble/latest/src/contrib/pharmaverseadam_1.3.0.tar.gz'
trying URL 'http://rspm/default/__linux__/noble/latest/src/contrib/this.path_2.7.1.tar.gz'
* installing *binary* package ‘gt’ ...
* DONE (gt)
* installing *binary* package ‘pharmaverseadam’ ...
* DONE (pharmaverseadam)
* installing *binary* package ‘this.path’ ...
* DONE (this.path)
* installing *binary* package ‘gtsummary’ ...
* DONE (gtsummary)

The downloaded source packages are in
	‘/tmp/RtmpnGw76Z/downloaded_packages’
> 
> # Load libraries & data -------------------------------------
> library(dplyr)

Attaching package: ‘dplyr’

The following objects are masked from ‘package:stats’:

    filter, lag

The following objects are masked from ‘package:base’:

    intersect, setdiff, setequal, union
> library(gtsummary)
> library(gt)
> library(this.path)
> 
> adsl <- pharmaverseadam::adsl
> adae <- pharmaverseadam::adae
> 
> # Pre-processing --------------------------------------------
> adae <- adae |>
+   filter(
+     # safety population
+     SAFFL == "Y",
+     # treatment-emergent adverse events
+     TRTEMFL == "Y"
+   )
> 
> tbl <- adae |>
+   tbl_hierarchical(
+     variables = c(AETERM, AESOC),
+     by = TRT01A,
+     id = USUBJID,
+     denominator = adsl,
+     overall_row = TRUE,
+     label = "..ard_hierarchical_overall.." ~ "Any TEAE"
+   ) |>
+   # Add the 'Total' column
+   add_overall(last = FALSE, col_label = "**Total**  \nN = {style_number(N)}")
> 
> # Sort all variables by descending frequency (default)
> tbl <- sort_hierarchical(tbl)
> 
> setwd(this.path::this.dir())
> 
> tbl |> 
+   as_gt() |>
+   gt::gtsave(filename = "ae_summary_table.html")
> 